Wavelength (nm)	Spectral Radiance (W cm-2 sr-1 nm-1) at 3.452 10-5 A
300	0.000000127
310	0.00000021
320	0.000000337
330	0.000000519
340	0.000000756
350	0.00000108
400	0.00000409
450	0.00000915
500	0.0000161
555	0.0000251
600	0.0000323
655	0.0000404
700	0.000046
800	0.0000538
900	0.0000541
1050	0.0000486
1150	0.0000401
1200	0.0000358
1300	0.000031
1540	0.0000138
1600	0.0000126
1700	0.0000109
2000	0.00000283
2100	0.00000271
2300	0.00000167
2400	0.00000117
